Folder: Amorphous_Semiconductor_Devices/Final/uv_vis

File: data.txt
800 58.93870 46.42790 77.48620 59.96450 44.45270
797 58.60590 46.27240 77.35340 59.84810 44.31830
794 58.45450 46.10360 77.29490 59.75640 44.10730
791 58.32250 45.94130 77.26040 59.59590 43.77850
788 58.08850 45.72060 77.05360 59.28100 43.54000
785 57.86470 45.65880 76.98740 59.33720 43.39080
782 57.76120 45.39060 76.74430 59.07740 43.15180
779 57.43650 45.16600 76.63850 58.94810 42.92370
776 57.31950 45.00030 76.45910 58.61600 42.64670
773 57.17850 44.84620 76.37720 58.52290 42.43560
770 56.73790 44.61370 76.21050 58.25210 42.25620
767 56.70550 44.31730 76.00510 58.05600 41.98000
764 56.51980 44.34480 76.07480 57.96800 41.72890
761 56.35890 44.12140 75.92220 57.80240 41.53100
758 56.03970 43.82050 75.60380 57.45190 41.38670
755 55.86210 43.60870 75.32640 57.18860 41.13140
752 55.56450 43.41110 75.42120 57.05480 40.87730
749 55.35370 43.30100 75.41050 57.00440 40.62500
746 55.21560 43.08100 75.22760 56.76850 40.45680
743 54.99510 42.94490 75.11860 56.57240 40.15740
740 54.77160 42.65850 74.83370 56.26020 39.93650
737 54.62650 42.47890 74.69480 56.20280 39.78600
734 54.45030 42.14600 74.45780 55.79040 39.55230
731 54.11370 42.06220 74.36260 55.69550 39.36810
728 54.01660 41.78960 74.29620 55.47370 39.15720
725 53.66480 41.45010 74.00950 55.19090 38.84610
722 53.51270 41.32480 74.05140 55.02450 38.72590
719 53.32390 41.22860 74.06270 54.97260 38.42350
716 53.10240 41.06270 73.79980 54.85180 38.26840
713 52.79730 40.71340 73.60560 54.45800 38.05360
710 52.76990 40.44680 73.39260 54.22870 37.87140
707 52.42290 40.20000 73.13170 53.98450 37.59560
704 52.19930 39.88360 72.93710 53.69700 37.47810
701 52.00670 39.67250 72.72630 53.54660 37.30650
698 51.78600 39.44830 72.79340 53.37520 36.95100
695 51.56630 39.29850 72.64950 53.11140 36.80300
692 51.39040 39.09800 72.47460 52.90710 36.69020
689 51.15390 38.76700 72.13870 52.66880 36.40930
686 50.87460 38.57890 72.04100 52.48310 36.23540
683 50.71070 38.27970 71.81470 52.18330 36.04140
680 50.49510 38.00180 71.72580 51.95190 35.82220
677 50.19090 37.82170 71.50790 51.79430 35.59440
674 50.06990 37.64990 71.50530 51.62510 35.44380
671 49.86190 37.35240 71.27300 51.37070 35.23970
668 49.53070 37.10740 71.05140 51.11520 35.08740
665 49.41970 36.82670 70.84590 50.75370 34.97960
662 49.20840 36.63500 70.62850 50.58180 34.68930
659 48.91950 36.41050 70.48560 50.40070 34.50710
656 48.73870 36.11730 70.17680 50.12220 34.35960
653 48.62970 35.87270 70.12880 49.92480 34.11610
650 48.27270 35.59180 69.90460 49.59330 33.92810
647 48.09590 35.41490 69.59620 49.41460 33.76600
644 47.85460 35.07740 69.37290 49.10730 33.63900
641 47.64050 34.85160 69.36030 48.97220 33.38430
638 47.42800 34.66170 69.18570 48.69600 33.27450
635 47.19440 34.40690 68.89070 48.42410 33.05830
632 46.90920 34.25580 68.67670 48.28890 32.85880
629 46.73060 33.90610 68.33350 47.93040 32.67240
626 46.58100 33.64940 68.17510 47.69920 32.51330
623 46.26950 33.43290 67.98090 47.46680 32.34120
620 46.10400 33.26140 67.78840 47.27160 32.21620
617 45.93520 33.00810 67.60330 46.99020 32.01860
614 45.56130 32.73330 67.35600 46.76600 31.80550
611 45.34100 32.52930 67.13060 46.48870 31.66070
608 45.20270 32.30100 66.83390 46.28830 31.51560
605 44.95850 32.02220 66.56700 45.91570 31.25220
602 44.74820 31.75350 66.35280 45.60620 31.13920
599 44.57490 31.57400 66.17160 45.50490 30.98460
596 44.27890 31.39620 66.01290 45.28860 30.76700
593 43.99730 31.14130 65.75230 45.07480 30.62360
590 43.78980 30.86300 65.27140 44.74450 30.47450
587 43.51670 30.52960 64.95940 44.52650 30.24870
584 43.26450 30.35980 64.84160 44.27030 30.08260
581 43.15170 30.14860 64.52370 43.99010 29.90720
578 42.81980 29.95810 64.19760 43.86870 29.72730
575 42.56580 29.68240 64.04430 43.58920 29.51460
572 42.40220 29.42290 63.66310 43.30440 29.38310
569 42.08510 29.16350 63.33160 43.07520 29.18070
566 41.78960 29.02140 63.12280 43.01030 28.97380
563 41.53960 28.74160 62.72270 42.64860 28.84700
560 41.33650 28.49010 62.43640 42.43950 28.64290
557 41.12460 28.23580 62.14420 42.14530 28.44640
554 40.70480 27.96860 61.79260 41.85280 28.22890
551 40.48420 27.81020 61.42980 41.68460 28.07280
548 40.18110 27.53760 61.21570 41.45680 27.87750
545 39.88670 27.29620 60.85850 41.29380 27.66080
542 39.63550 27.00960 60.45120 40.97660 27.45710
539 39.34910 26.81660 60.08570 40.73600 27.24380
536 38.98320 26.58850 59.77770 40.51590 27.01590
533 38.74470 26.28790 59.36400 40.20740 26.82060
530 38.47750 26.01670 58.92670 39.95610 26.61410
527 38.03190 25.85790 58.68460 39.79310 26.38010
524 37.77370 25.64380 58.38700 39.50060 26.18190
521 37.42790 25.30630 57.90870 39.24210 25.93200
518 37.00350 24.96980 57.41120 38.94880 25.70050
515 36.72040 24.79620 57.19140 38.76230 25.46570
512 36.38130 24.49470 56.67630 38.50630 25.23140
509 35.97220 24.23780 56.38120 38.24170 24.96130
506 35.57750 23.94410 55.95230 37.91650 24.69560
503 35.23010 23.70590 55.58270 37.62910 24.45610
500 34.76340 23.39450 55.04070 37.34310 24.16680
497 34.34650 23.08020 54.53930 37.02620 23.91540
494 33.96210 22.78110 54.19060 36.69610 23.61060
491 33.58540 22.46060 53.78050 36.39130 23.32930
488 33.13850 22.20390 53.40490 36.12130 23.06210
485 32.72480 21.90550 52.95660 35.72780 22.77410
482 32.23000 21.68220 52.67620 35.47600 22.43340
479 31.75560 21.31700 52.24030 35.05440 22.16430
476 31.35200 20.95990 51.67590 34.73050 21.84550
473 30.84560 20.69740 51.29580 34.41200 21.52290
470 30.34130 20.42060 50.89150 34.00590 21.19180
467 29.89860 20.07620 50.47950 33.60080 20.88020
464 29.33970 19.68340 49.86430 33.14150 20.50460
461 28.81920 19.41210 49.40770 32.71840 20.19320
458 28.35670 19.07230 48.95300 32.28210 19.86630
455 27.84000 18.76550 48.62360 31.86290 19.50010
452 27.24500 18.43220 48.08580 31.42830 19.11580
449 26.79680 18.09160 47.64140 30.91550 18.77470
446 26.21410 17.73480 47.07530 30.39420 18.39890
443 25.62990 17.36760 46.56680 29.89190 18.02350
440 25.13760 16.99590 45.96200 29.31740 17.66620
437 24.58320 16.64740 45.51970 28.79220 17.29240
434 24.02790 16.32760 45.04640 28.27800 16.89220
431 23.46940 15.97760 44.50200 27.74640 16.49820
428 22.90640 15.62070 43.89050 27.16860 16.11110
425 22.29580 15.24490 43.25390 26.53930 15.71330
422 21.78270 14.86860 42.68850 25.93740 15.31790
419 21.23350 14.49570 42.01870 25.31550 14.92700
416 20.62650 14.12780 41.42010 24.68960 14.53030
413 20.10520 13.81370 40.85030 24.07340 14.15370
410 19.56200 13.46000 40.17740 23.46820 13.71660
407 18.97300 13.10240 39.49040 22.84220 13.32890
404 18.43270 12.75180 38.92790 22.22670 12.94170
401 17.90550 12.43170 38.26860 21.57300 12.53500
398 17.34850 12.06530 37.52990 20.95230 12.13750
395 16.82290 11.68160 36.72150 20.27910 11.74870
392 16.29470 11.35860 36.08460 19.63440 11.35720
389 15.73310 11.03650 35.40960 18.99780 10.96630
386 15.25990 10.69900 34.58570 18.36770 10.59410
383 14.76030 10.36670 33.86730 17.75120 10.21970
380 14.24020 10.04530 33.11740 17.15440 9.83252
377 13.76300 9.72804 32.39080 16.55210 9.45753
374 13.30130 9.37437 31.52270 15.92630 9.10278
371 12.82390 9.06313 30.79700 15.29290 8.74931
368 12.34420 8.77739 30.11460 14.72010 8.38238
365 11.93190 8.46969 29.29560 14.14730 8.05470
362 11.44570 8.15842 28.47350 13.58970 7.71014
359 11.03380 7.87319 27.73740 13.04860 7.38287
356 10.63590 7.59625 26.98810 12.51280 7.05121
353 10.20660 7.30824 26.17690 12.02130 6.74090
350 9.81275 7.01516 25.33380 11.46840 6.42823
347 9.41929 6.76066 24.67600 10.96340 6.10284
344 9.01806 6.50336 23.91500 10.47830 5.86352
341 8.63794 6.24589 23.18730 10.01140 5.56013
338 8.28820 5.99345 22.41860 9.55099 5.30151
335 7.91772 5.74755 21.70880 9.11768 5.01879
332 7.57352 5.51547 20.99320 8.68832 4.77345
329 7.22783 5.28589 20.29850 8.29922 4.51983
326 6.91012 5.06284 19.63400 7.91011 4.29247
323 6.59711 4.84340 18.96020 7.52728 4.07302
320 6.28691 4.63608 18.31890 7.17118 3.85657
317 5.97701 4.42655 17.68670 6.82114 3.64232
314 5.67996 4.22589 17.08640 6.49944 3.43600
311 5.38025 4.02779 16.49080 6.18188 3.24543
308 5.09853 3.82351 15.91270 5.87327 3.05846
305 4.83080 3.63560 15.36890 5.58626 2.88697
302 4.54618 3.44625 14.81750 5.30276 2.72161
299 4.28855 3.25994 14.29450 5.04271 2.56989
296 4.04519 3.09077 13.78760 4.79285 2.42566
293 3.79848 2.92292 13.29400 4.54770 2.27990
290 3.55144 2.76485 12.81810 4.31464 2.14663
287 3.32906 2.61716 12.34660 4.09041 2.01605
284 3.09955 2.47161 11.88260 3.87045 1.90110
281 2.88824 2.33740 11.41390 3.66534 1.78904
278 2.68759 2.21222 10.95580 3.46867 1.68889
275 2.49759 2.09129 10.49500 3.28077 1.59550
272 2.31690 1.97654 10.02910 3.09270 1.49626
269 2.14538 1.87347 9.56723 2.91020 1.41312
266 1.99717 1.77229 9.09474 2.74261 1.32944
263 1.84396 1.67870 8.61488 2.57606 1.25225
260 1.70993 1.58503 8.13733 2.41985 1.18510
257 1.58318 1.50633 7.65323 2.26591 1.12094
254 1.46888 1.42551 7.17283 2.12007 1.06645
251 1.36888 1.35783 6.70141 1.98241 1.00913
248 1.27609 1.28774 6.23378 1.84787 0.95576
245 1.19895 1.23228 5.79517 1.72818 0.90682
242 1.12543 1.16993 5.36182 1.60476 0.86766
239 1.06036 1.11604 4.96541 1.49414 0.82085
236 1.00263 1.06545 4.58116 1.38666 0.78378
233 0.95305 1.01857 4.22918 1.29227 0.75007
230 0.90511 0.97348 3.89419 1.19706 0.71726
227 0.86343 0.93218 3.58660 1.11474 0.68950
224 0.82520 0.89896 3.31060 1.03609 0.65852
221 0.79036 0.85805 3.04405 0.96074 0.63255
218 0.75702 0.82402 2.80377 0.89234 0.60662
215 0.72564 0.79663 2.58566 0.83548 0.58452
212 0.70177 0.76127 2.37986 0.77499 0.56460
209 0.67412 0.73287 2.19123 0.72361 0.54470
206 0.64602 0.70485 2.01681 0.66968 0.51908
203 0.61987 0.68059 1.86165 0.62503 0.50652
200 0.59904 0.65104 1.72153 0.57895 0.48673